acc_x, acc_y, angular_z, stamp, 
0.04766017198562622,0.04240524768829346,-5.349775531441529e-05,1738283518674687919,
0.03445953130722046,-0.011564314365386963,-5.400283672534667e-05,1738283518704626455,
-0.019903123378753662,0.022565484046936035,-5.400647297136163e-05,1738283518734631857,
-0.03452622890472412,0.006444334983825684,-5.3096136535496614e-05,1738283518765151682,
-0.007657766342163086,0.015440523624420166,-5.02095740072087e-05,1738283518797426089,
0.03869754076004028,-0.0009421706199645996,-6.193959645819404e-05,1738283518823528322,
-0.024875342845916748,-0.024812161922454834,-5.29003274662595e-05,1738283518884473178,
-0.001617729663848877,0.023594677448272705,-5.4923283809573434e-05,1738283518914384864,
0.019870519638061523,0.02148061990737915,-5.478945322897351e-05,1738283518944369688,
0.017749130725860596,0.004897117614746094,-5.482668536077131e-05,1738283518974402256,
-0.018527448177337646,-0.006151556968688965,-5.352445160127325e-05,1738283519005165656,
-0.03301113843917847,0.01170659065246582,-5.079921040133541e-05,1738283519037872818,
0.010136544704437256,0.01876741647720337,-6.249256337025858e-05,1738283519064281138,
0.029895007610321045,0.004136621952056885,-5.4119958735461986e-05,1738283519094843830,
-0.01007014513015747,0.0022455453872680664,-5.541922105714554e-05,1738283519124824529,
-0.02998936176300049,-0.03363114595413208,-5.5629712844296624e-05,1738283519154758761,
0.004349112510681152,-0.006657958030700684,-5.506448748207e-05,1738283519185000179,
0.033150672912597656,0.01284170150756836,-5.5759183173323575e-05,1738283519214731213,
0.02217811346054077,-0.017919957637786865,-5.457885343371806e-05,1738283519245173555,
-0.02275979518890381,0.008975863456726074,-5.403844809614366e-05,1738283519275920349,
-0.019068598747253418,0.030504345893859863,-5.906880958209812e-05,1738283519303985595,
0.0028457045555114746,-0.011113762855529785,-5.507006657801316e-05,1738283519333953403,
0.020933330059051514,0.008305788040161133,-5.522119755101496e-05,1738283519363839186,
-0.020255088806152344,-0.03135216236114502,-5.5220678840283624e-05,1738283519393860192,
-0.04131132364273071,-0.024078190326690674,-5.497056299372684e-05,1738283519423882140,
0.004249513149261475,-0.016632437705993652,-5.4948834060138626e-05,1738283519453780170,
0.00823068618774414,0.02136021852493286,-5.184912689385707e-05,1738283519485178063,
-0.016706228256225586,-0.014330565929412842,-5.1693463462882e-05,1738283519516598419,
-0.012842535972595215,-0.004888713359832764,-5.9953001727292056e-05,1738283519543690062,
-0.014264881610870361,0.00628054141998291,-5.356742924204427e-05,1738283519573663487,
0.007712304592132568,-0.0007323026657104492,-5.36925571960325e-05,1738283519603567090,
0.038330137729644775,0.010142087936401367,-5.3377768733128295e-05,1738283519633577278,
-0.013805627822875977,-0.009559571743011475,-5.322272021910098e-05,1738283519663674896,
0.0007990002632141113,0.013803303241729736,-5.374156439088924e-05,1738283519693481945,
0.009934484958648682,0.012066245079040527,-4.920552531462946e-05,1738283519725961081,
0.027815401554107666,0.020975053310394287,-5.720622822766008e-05,1738283519753897772,
0.020541131496429443,-0.03300553560256958,-5.434123084300394e-05,1738283519783375867,
-0.0064193010330200195,-0.00960928201675415,-5.3581459139624514e-05,1738283519813341484,
-0.009881854057312012,0.0030240416526794434,-5.3451069799339276e-05,1738283519843310517,
-0.006376445293426514,-0.0021798014640808105,-5.324983804048908e-05,1738283519873392814,
0.004179418087005615,-0.012807071208953857,-5.314844948923969e-05,1738283519903532506,
-0.035566747188568115,-0.0018246769905090332,-5.392746197443401e-05,1738283519933236809,
-0.02271813154220581,-0.014132857322692871,-5.000153445682116e-05,1738283519965198903,
0.0027019381523132324,0.011311054229736328,-5.660637390056647e-05,1738283519993168474,
0.033296167850494385,0.01677405834197998,-5.298511576169185e-05,1738283520023119980,
0.02248239517211914,-0.022753357887268066,-5.486485254140286e-05,1738283520052045286,
-0.03483396768569946,-0.011835455894470215,-5.124201771274631e-05,1738283520083015627,
-0.0038107633590698242,0.04750567674636841,-5.2900884014493354e-05,1738283520112944457,
0.027221202850341797,0.01680964231491089,-5.278280512282754e-05,1738283520142940283,
0.030806422233581543,-0.004974424839019775,-5.113373888227095e-05,1738283520173903434,
-0.010619699954986572,0.00039380788803100586,-5.031374929821263e-05,1738283520205297101,
-0.019337475299835205,0.007660925388336182,-5.735378183540808e-05,1738283520232902241,
0.02221238613128662,0.0022525787353515625,-5.2823122312941194e-05,1738283520262875106,
0.018490076065063477,-0.005039572715759277,-5.306557243937046e-05,1738283520292781196,
0.0022164583206176758,-0.014102518558502197,-5.299075564629587e-05,1738283520322729452,
-0.024618685245513916,0.010457158088684082,0.0003878381092901665,1738283520352707497,
0.00699228048324585,0.06710290908813477,0.01802081205854338,1738283520382714791,
-0.5428466796875,0.9506031274795532,0.24097366614221144,1738283520413260240,
-0.09833931922912598,0.49487924575805664,0.5822113392517304,1738283520445251312,
0.013185083866119385,-0.017971515655517578,0.9409207902589265,1738283520472902083,
-0.4054828882217407,-0.03162276744842529,1.0399827282552108,1738283520502584344,
0.46149885654449463,0.20917260646820068,1.2591176017850942,1738283520532432958,
-0.43482935428619385,0.33918458223342896,1.4459495358858685,1738283520562439629,
0.10213524103164673,0.223608136177063,1.5734470899742954,1738283520592373072,
0.09454983472824097,-0.18375027179718018,1.7741173698845607,1738283520622360244,
0.44090020656585693,-0.04130065441131592,1.8233496443976125,1738283520653530934,
0.011686563491821289,0.808155357837677,1.8317923220502117,1738283520685816461,
0.2985239028930664,0.2800990343093872,2.3173627007972657,1738283520712276524,
0.30123192071914673,-0.33565425872802734,2.0456017598795073,1738283520742229209,
0.9692311882972717,-0.25778627395629883,2.0348274053556747,1738283520772190791,
0.21452176570892334,-0.26727157831192017,1.9553462587051649,1738283520802134091,
0.14336735010147095,0.056339263916015625,1.883702455727545,1738283520832086974,
-0.2504645586013794,-0.12695521116256714,1.8534263566345361,1738283520862097875,
-1.0005966424942017,-0.1805422306060791,1.8113268637873825,1738283520893335064,
0.3062806725502014,-0.18422728776931763,1.8179527270799598,1738283520925313185,
0.1912599802017212,0.08484041690826416,2.1719279467051007,1738283520951999244,
0.014207303524017334,0.05682098865509033,1.9330253980818577,1738283520981983411,
0.20137906074523926,0.04196774959564209,1.913102158344238,1738283521011950408,
-0.17017006874084473,0.09528285264968872,1.9393100249486852,1738283521041840730,
0.1087338924407959,-0.29696518182754517,1.9940061313117146,1738283521071831248,
0.17479783296585083,0.39943933486938477,1.9411754575823887,1738283521101848156,
0.48578113317489624,0.18799537420272827,1.804560825539879,1738283521133742746,
0.5263890027999878,0.03662705421447754,1.885006940790471,1738283521164430948,
0.18578213453292847,0.5061100721359253,2.123853684921798,1738283521191714335,
-0.2692762017250061,0.35086071491241455,1.9274515782772597,1738283521221684139,
0.12768536806106567,0.4578338861465454,1.9907241624553926,1738283521250593042,
-0.5700973868370056,-0.08192574977874756,1.86309748689145,1738283521281600228,
-0.362964928150177,-0.21745389699935913,1.948220126674877,1738283521311569810,
0.6775767207145691,0.8624618649482727,1.95396646309078,1738283521341545034,
0.2027570605278015,0.4435521364212036,1.7508312793792833,1738283521373599163,
0.14219778776168823,0.14542990922927856,1.843218626469935,1738283521403760431,
-0.1753196120262146,-0.30958014726638794,1.9919722925661054,1738283521431462305,
0.14758729934692383,0.20950466394424438,1.7499412163688775,1738283521461364137,
0.08876162767410278,0.3822256326675415,1.689255703493969,1738283521491325437,
0.5459995865821838,0.6777204275131226,1.63037430615956,1738283521521348414,
-0.3347839117050171,0.2689988613128662,1.6099989106520285,1738283521551251196,
-0.3889274597167969,-0.10470396280288696,1.6003019592734264,1738283521581818575,
0.11062240600585938,0.2411576509475708,1.5683140932266466,1738283521613319941,
0.4018535614013672,0.700158417224884,1.7585536292116264,1738283521641234534,
0.3767561912536621,0.3101919889450073,1.573992877913414,1738283521671110456,
-0.42020779848098755,0.13335943222045898,1.5034939446540843,1738283521701125527,
-0.2488815188407898,0.15813744068145752,1.5113983337629846,1738283521731153739,
0.299596905708313,0.32510310411453247,1.478138936351707,1738283521761118027,
-0.07349014282226562,-0.13947433233261108,1.4439701284007613,1738283521791106757,
-0.42381060123443604,0.17388874292373657,1.4569143194720564,1738283521821403282,
0.5481380224227905,0.246839702129364,1.3716777245583183,1738283521853953834,
-0.2618984580039978,0.7825225591659546,1.5933624527249721,1738283521880956765,
0.3702733516693115,0.047796666622161865,1.4584631011421094,1738283521910864663,
0.01284492015838623,-0.10305660963058472,1.4198932595191764,1738283521940854384,
-0.04891407489776611,0.1408100724220276,1.3481394063798215,1738283521970775350,
0.12904059886932373,0.8015017509460449,1.3218064737052577,1738283522000724153,
-0.2666468620300293,0.35882872343063354,1.322100591316063,1738283522030729613,
0.00016325712203979492,-0.13575714826583862,1.3217511394160943,1738283522061358705,
0.399006724357605,0.5308318734169006,1.20277758550651,1738283522093770431,
-0.45955365896224976,0.17567503452301025,1.3886872880722918,1738283522120640922,
0.30138301849365234,0.16748636960983276,1.2638744568129299,1738283522150614782,
-0.2153615951538086,0.6037927865982056,1.2695196368879769,1738283522180538618,
0.13625645637512207,-0.022105157375335693,1.2780222014088325,1738283522210467229,
-0.007585108280181885,0.37290090322494507,1.232974902633329,1738283522240467684,
-0.27898502349853516,0.16005688905715942,1.2075136258575943,1738283522270459141,
0.3877337574958801,0.14854538440704346,1.1735096253149493,1738283522301582237,
0.05786818265914917,0.6321720480918884,1.1220598538592792,1738283522333517228,
0.8284253478050232,0.06867676973342896,1.2904398471413225,1738283522360413744,
0.004109501838684082,0.10506641864776611,1.1049921188329563,1738283522390383190,
-0.2746288776397705,0.16347795724868774,1.1283719345961076,1738283522420265456,
0.49406319856643677,0.44761115312576294,1.1317805051931566,1738283522450305881,
-0.1918516755104065,0.5677435398101807,1.160568279746129,1738283522480237699,
0.2812414765357971,-0.28126633167266846,1.123442452200443,1738283522510321929,
0.017014682292938232,0.35417985916137695,1.0653272155226758,1738283522541836856,
-0.2890391945838928,0.5171127319335938,1.0340554641415733,1738283522573625139,
0.30425554513931274,0.02438253164291382,1.2148744894842993,1738283522600294546,
-0.33636003732681274,0.2989075779914856,1.095523102548873,1738283522630251206,
0.3217785954475403,0.27984070777893066,1.0992427572139842,1738283522660270503,
0.06308090686798096,0.19669651985168457,1.092044121438803,1738283522690276388,
0.11314523220062256,0.5843563675880432,1.0839520674669851,1738283522720235267,
0.1328100562095642,0.19622701406478882,1.0484080061430257,1738283522750194623,
-0.3542519807815552,0.10058528184890747,0.9714387274864006,1738283522781371918,
-0.18139433860778809,0.3449605703353882,0.9792127791705558,1738283522812559520,
0.22547399997711182,-0.23245257139205933,1.1085671034344353,1738283522840263415,
0.29780030250549316,0.5490937232971191,0.9930028254064803,1738283522870185066,
0.47510749101638794,0.6341229677200317,0.9956099622746007,1738283522899114578,
-0.4944424033164978,0.28055834770202637,0.9657257591652024,1738283522929116063,
-0.1478433609008789,-0.06736892461776733,0.9495087056545252,1738283522960138007,
0.2351282238960266,0.18768131732940674,0.9855483301598011,1738283522990216310,
0.16223376989364624,0.6588214039802551,0.9122512610725574,1738283523021360141,
-0.4370412826538086,0.05927860736846924,0.9457251311434138,1738283523051672543,
0.4519595503807068,0.048466384410858154,0.989943915927146,1738283523080261077,
-0.2974172830581665,0.5362785458564758,0.969822496421944,1738283523109114404,
0.1807856559753418,0.4859880208969116,0.9169392099516152,1738283523139092285,
-0.09050017595291138,-0.19112831354141235,0.8824720163857932,1738283523169981166,
-0.09523135423660278,-0.11295932531356812,0.909352212931596,1738283523199933906,
0.5085416436195374,0.8091712594032288,0.8938940334395891,1738283523230004630,
0.023904740810394287,-0.005837440490722656,0.8466984447365429,1738283523261769500,
-0.37599849700927734,0.4438970685005188,0.9723424741530201,1738283523289317508,
0.08354628086090088,0.23580330610275269,0.9042708378959398,1738283523319248707,
-0.10496628284454346,-0.15217512845993042,0.8936171551477388,1738283523349152684,
0.28196853399276733,0.3470536470413208,0.8657991799832702,1738283523379076481,
0.10239571332931519,0.6653196215629578,0.8429688048534161,1738283523409118411,
0.12112414836883545,-0.16149544715881348,0.8740829061301503,1738283523438057947,
-0.6531158089637756,0.3785649538040161,0.8218655622124293,1738283523469564592,
0.5917481184005737,-0.039873480796813965,0.7859144237953573,1738283523501864174,
-0.0728905200958252,0.13317763805389404,0.9460178893538043,1738283523528029500,
-0.08243036270141602,0.7189978957176208,0.8129090023073466,1738283523558940069,
-0.3100128173828125,0.17808640003204346,0.8342978957446189,1738283523588918638,
-0.06887161731719971,0.09798496961593628,0.8487062211252493,1738283523618893984,
0.6698344945907593,-0.02038973569869995,0.8153738930649902,1738283523648794622,
-0.3054933547973633,0.45384663343429565,0.7947871923648631,1738283523677738902,
-0.08582568168640137,0.9128284454345703,0.7406759830077264,1738283523708570368,
-0.11631196737289429,-0.25776296854019165,0.7331951923804769,1738283523741492687,
-0.35336387157440186,0.005997180938720703,0.9109256937341613,1738283523768713199,
0.23585152626037598,0.7070214748382568,0.8179879399763903,1738283523798630440,
0.03054112195968628,-0.04867875576019287,0.79610873575212,1738283523828578619,
0.10217493772506714,0.11272972822189331,0.7824757741585612,1738283523858512677,
-0.22582697868347168,0.6086915135383606,0.785150472759413,1738283523888511817,
-0.06844329833984375,0.13178908824920654,0.7807157755292389,1738283523918490300,
0.15125161409378052,-0.277508020401001,0.7293284031425018,1738283523950005902,
0.03035295009613037,0.6338192224502563,0.7102763689260828,1738283523981706817,
-0.18694067001342773,0.36437124013900757,0.8494449218505933,1738283524008411028,
-0.3881114721298218,0.11663639545440674,0.7795762778417891,1738283524038382978,
0.48150402307510376,-0.08821874856948853,0.7584719576206976,1738283524068376431,
-0.24940615892410278,0.2549227476119995,0.7256645970768323,1738283524098229100,
-0.49124574661254883,0.3920600414276123,0.7042437279673114,1738283524128465161,
0.059167444705963135,0.21186774969100952,0.7308772834763054,1738283524158248330,
0.00709301233291626,-0.08860093355178833,0.7105634050315529,1738283524189681412,
0.40298664569854736,0.09151351451873779,0.6687231699867343,1738283524221492509,
0.1322219967842102,-0.044621050357818604,0.7516952562175414,1738283524258105859,
-0.523018479347229,0.10666728019714355,0.7136101126014565,1738283524288268169,
0.5241723656654358,0.3370419144630432,0.709096121269236,1738283524318099993,
0.015951454639434814,0.6243336796760559,0.6575413145805225,1738283524349709282,
-0.23401403427124023,-0.14959275722503662,0.6627849900955267,1738283524380296460,
0.13463199138641357,-0.27802103757858276,0.757665941914528,1738283524407876837,
-0.01749211549758911,0.1704801321029663,0.7104763537199613,1738283524437864537,
0.11252200603485107,1.0513273477554321,0.7005496893870792,1738283524467834988,
-0.18014448881149292,0.37659525871276855,0.6786563027388819,1738283524497756951,
-0.19638299942016602,-0.4086068272590637,0.6946945883345537,1738283524527728877,
0.6832139492034912,0.06375670433044434,0.684770955076694,1738283524557748132,
-0.35907554626464844,0.3306555151939392,0.6274436517232195,1738283524590160237,
0.02086484432220459,0.33119142055511475,0.6829772832442299,1738283524619612519,
-0.1915910243988037,0.6179783344268799,0.7216825632227213,1738283524647606473,
0.18686503171920776,-0.22760039567947388,0.6627420351480078,1738283524677582239,
0.7109278440475464,-0.12029522657394409,0.6406086526332847,1738283524707550745,
-0.18133634328842163,0.4646673798561096,0.6181884643635863,1738283524737525944,
-0.2956809997558594,0.11324024200439453,0.6200788328828238,1738283524767502719,
-0.09310752153396606,0.3951687216758728,0.6514472419901037,1738283524797988066,
0.1824800968170166,0.4624335765838623,0.6261021147624635,1738283524829681659,
0.28181058168411255,0.06422942876815796,0.7043052362109192,1738283524857387251,
-0.20080935955047607,-0.030826210975646973,0.6646785148303986,1738283524887339371,
0.072948157787323,0.1334323287010193,0.6739741826675921,1738283524917324226,
-0.36041295528411865,0.6568739414215088,0.6736812408507573,1738283524947228346,
0.0804561972618103,0.04022699594497681,0.6340310019444327,1738283524977244060,
0.24649149179458618,0.055967628955841064,0.6349808118687518,1738283525007199033,
0.5827685594558716,0.34435170888900757,0.6255996079126757,1738283525038110652,
-0.2522679567337036,0.20675867795944214,0.5546073006849659,1738283525069724073,
-0.3385896682739258,0.1776755452156067,0.6274084600743042,1738283525097158762,
0.41211241483688354,0.07769078016281128,0.608230649427059,1738283525127077191,
0.1513385772705078,0.33841031789779663,0.6398722903583157,1738283525156990198,
-0.10498738288879395,0.9914956092834473,0.6061644820228577,1738283525186986614,
-0.18271911144256592,-0.1827903389930725,0.5522129519827992,1738283525216978019,
-0.3527297377586365,-0.8576783537864685,0.5490076011660937,1738283525246875930,
0.17346727848052979,0.22530359029769897,0.5547509995653976,1738283525276957140,
0.04894787073135376,0.43396222591400146,0.4989094742792099,1738283525309563709,
0.3080980181694031,0.8002796173095703,0.627334925946596,1738283525336870553,
-0.15179580450057983,0.32342517375946045,0.6134478362367541,1738283525366739337,
-0.01126164197921753,-0.24945461750030518,0.5889794927348989,1738283525396722817,
-0.01793801784515381,-0.14595872163772583,0.58802044945379,1738283525426709303,
0.09016066789627075,0.5214815735816956,0.5717107169079262,1738283525456617503,
-0.09680640697479248,0.006807863712310791,0.5616532621438728,1738283525486624295,
-0.2593477964401245,0.02683049440383911,0.5641130360402543,1738283525517627487,
0.4076995849609375,0.6472467184066772,0.49501074416776547,1738283525550272645,
-0.36261677742004395,0.37278956174850464,0.6084870220499982,1738283525576533759,
0.048355698585510254,-0.03363162279129028,0.5535324273884912,1738283525606546318,
0.0013028383255004883,0.21143019199371338,0.5783701341393275,1738283525636755332,
-0.12029725313186646,0.6297299265861511,0.5732860474041303,1738283525666458068,
0.19031113386154175,-0.013305604457855225,0.5436262576472229,1738283525696389854,
-0.196397602558136,-0.08741557598114014,0.5460465050606973,1738283525726388167,
0.2391459345817566,0.6883845329284668,0.5270064536990879,1738283525757694632,
-0.404358446598053,-0.3435773253440857,0.5024767616229797,1738283525789079849,
0.1418357491493225,-0.04196810722351074,0.5718146550221614,1738283525816313147,
0.008161306381225586,0.782135546207428,0.5546571555990599,1738283525846252801,
-0.0018611550331115723,0.6956921815872192,0.5488591908684269,1738283525876173440,
-0.20828783512115479,-0.30834609270095825,0.5205504000934758,1738283525906083079,
0.057275593280792236,-0.21791446208953857,0.5426742950271153,1738283525936162801,
0.27569055557250977,0.42139482498168945,0.5525904245180645,1738283525966088079,
-0.45233839750289917,0.2382611632347107,0.5117034168674658,1738283525998452034,
0.4221721291542053,0.11386209726333618,0.5240447983100968,1738283526028793817,
-0.6098601222038269,-0.266757071018219,0.576757322390719,1738283526055040413,
0.14467841386795044,0.22971200942993164,0.5194525348000834,1738283526084887683,
-0.048980772495269775,0.7831207513809204,0.5267598415332498,1738283526114855929,
-0.08548378944396973,0.19389337301254272,0.5126033303521669,1738283526145084483,
0.5279117226600647,0.39201515913009644,0.49681909070790264,1738283526175807098,
-0.40693700313568115,0.1830989122390747,0.4743952150256803,1738283526205786784,
-0.055337727069854736,-0.028315365314483643,0.44493083302791064,1738283526237756797,
0.20920515060424805,0.25312501192092896,0.48524627503302026,1738283526267803227,
0.13415813446044922,0.022611379623413086,0.5126468285435892,1738283526295667350,
-0.1897483468055725,0.0441247820854187,0.4700956604999317,1738283526325607880,
-0.06980133056640625,-0.2661226987838745,0.48382825135384316,1738283526355612731,
-0.26624512672424316,0.060756146907806396,0.5089736090813057,1738283526385596657,
0.20140427350997925,0.9644243717193604,0.5127149082906592,1738283526415493542,
-0.07896816730499268,0.44507092237472534,0.46405871796681575,1738283526446363007,
0.15461385250091553,0.0651598572731018,0.46521567501601313,1738283526477777557,
-0.25978320837020874,0.21974211931228638,0.5501920650449299,1738283526505445444,
0.5245161652565002,0.11116749048233032,0.45695629177295,1738283526535390663,
-0.23792630434036255,0.5990128517150879,0.4550282431622559,1738283526565327221,
0.2861807942390442,-0.2607123851776123,0.47441860935216623,1738283526595339867,
-0.09556317329406738,-0.13248330354690552,0.46512542092763604,1738283526625268672,
-0.3237416744232178,0.04790729284286499,0.4607124063866115,1738283526655264887,
0.2073565125465393,-0.07875454425811768,0.46017197982565433,1738283526685558830,
-0.22021347284317017,0.3310309052467346,0.43172449125568746,1738283526718201420,
-0.0975530743598938,-0.008712291717529297,0.5501048979626944,1738283526745211923,
-0.03434985876083374,0.20920127630233765,0.49194430669525047,1738283526775113670,
-0.3406405448913574,0.30198872089385986,0.49464737131043623,1738283526804057714,
0.2047353982925415,0.38882672786712646,0.5020728374255875,1738283526834066356,
0.2737020254135132,0.7810072302818298,0.4669578892093217,1738283526864020048,
0.11101031303405762,-0.024419844150543213,0.42595118359627115,1738283526894043056,
0.2647579312324524,0.5155310034751892,0.4288280391915107,1738283526925673524,
-0.010376572608947754,0.4884015917778015,0.4352110476565975,1738283526958270521,
-0.4922153353691101,0.021255791187286377,0.49136093224416877,1738283526985555243,
0.6646469235420227,0.23914802074432373,0.44998689107546813,1738283527015261656,
-0.19511699676513672,0.28290462493896484,0.45955001572373577,1738283527045252461,
0.2032909393310547,0.5531495809555054,0.44986805605797714,1738283527075252102,
-0.34080106019973755,0.17774969339370728,0.42559658807443507,1738283527105230163,
-0.37501734495162964,-0.4246003031730652,0.4444389457669495,1738283527135305206,
0.48665350675582886,0.20254600048065186,0.4509576503585925,1738283527165684718,
-0.1553630232810974,0.4686267375946045,0.4132858992895613,1738283527197859074,
0.4766191840171814,-0.4167925715446472,0.4768765464323699,1738283527225175882,
0.005236566066741943,-0.0717819333076477,0.44330159249063333,1738283527255246974,
-0.010800421237945557,-0.07754367589950562,0.4115259862222692,1738283527285200531,
-0.15102946758270264,0.03212767839431763,0.4125176135778885,1738283527315171851,
-0.07986539602279663,0.30763065814971924,0.4396937406612663,1738283527344380377,
0.059055864810943604,0.392988383769989,0.43337330616306474,1738283527374427691,
-0.42098885774612427,0.5387680530548096,0.4357684188099142,1738283527405042006,
0.18009573221206665,-0.2888143062591553,0.42435516851966354,1738283527436028944,
0.21441900730133057,0.37653565406799316,0.4973097742527873,1738283527464276955,
0.34612828493118286,1.0326900482177734,0.4608482473384735,1738283527494288300,
0.2751724123954773,0.320950448513031,0.4131299174915348,1738283527524284535,
0.11120420694351196,0.008461296558380127,0.43448627979731014,1738283527554200954,
0.4192429184913635,0.1401858925819397,0.4378744394284128,1738283527584269277,
-0.27025920152664185,0.27326685190200806,0.40038705245782563,1738283527614317641,
0.3332865834236145,0.5385311245918274,0.37795957260505325,1738283527645634906,
0.050466179847717285,-0.3949722647666931,0.3814438011630398,1738283527676000102,
-0.9610421657562256,0.2100132703781128,0.39536504908790937,1738283527702991460,
-0.830497682094574,-0.26036709547042847,0.2707087019139887,1738283527732020457,
-0.9472411274909973,-1.0375643968582153,0.15747730142378016,1738283527763921676,
-0.72091144323349,-0.3537781238555908,0.056055649202287075,1738283527793844254,
-0.03131711483001709,0.4467203617095947,-0.030774058233646377,1738283527823909377,
-0.5340402722358704,0.5612829923629761,-0.08663569144433061,1738283527854343081,
0.12501263618469238,-0.36830073595046997,-0.20218244684604125,1738283527885625198,
-0.5253353118896484,-0.7329286932945251,-0.37569722881007506,1738283527913802051,
-0.3912205100059509,0.08472448587417603,-0.45308956302025866,1738283527943735335,
-0.6594471335411072,-0.5122290849685669,-0.541278607218245,1738283527973722423,
-0.487885057926178,-0.2065998911857605,-0.6363280863239416,1738283528003622351,
0.08485293388366699,-0.007037162780761719,-0.7247230086085066,1738283528033619372,
-0.5561258792877197,-0.5138103365898132,-0.8045892884349982,1738283528063623635,
-0.8001282215118408,-0.5880917906761169,-0.9367380836069067,1738283528093759364,
-0.26873302459716797,-0.2713330388069153,-0.9756494670632483,1738283528126192588,
-0.23519301414489746,-0.412936270236969,-1.2428267620079576,1738283528153515772,
-0.34561681747436523,-0.5682654976844788,-1.190655171648149,1738283528183498977,
-0.3636387586593628,-0.7030149102210999,-1.2407420017642101,1738283528213654651,
-0.9253378510475159,0.0740310549736023,-1.3749748280918879,1738283528243421975,
-0.07122278213500977,-0.3085349202156067,-1.482335333543434,1738283528273401692,
-1.0183814764022827,-0.7626732587814331,-1.5771380439045974,1738283528303295411,
-0.8328904509544373,0.002591431140899658,-1.6517198002628546,1738283528333709731,
-0.1492304801940918,-0.23805886507034302,-1.6284362262148084,1738283528366127445,
-0.9984942078590393,-0.4368535876274109,-2.0688000064143774,1738283528393230891,
0.202334463596344,-0.26561444997787476,-1.9515992432609728,1738283528423169623,
-0.7792252898216248,0.0792088508605957,-1.9842175812751655,1738283528453137677,
0.5178743004798889,-0.23821377754211426,-1.9697495790984423,1738283528483073216,
-0.3252600431442261,0.28466862440109253,-1.9948565968841423,1738283528512022696,
-0.18030685186386108,-0.1797052025794983,-1.920106461987564,1738283528542022235,
-0.1375570297241211,-0.30869340896606445,-1.7882743734948399,1738283528573964275,
-0.17387926578521729,0.08402979373931885,-1.7741766599699962,1738283528605739729,
-0.07885622978210449,-0.20374292135238647,-2.0890364144295313,1738283528632928223,
0.036065757274627686,-0.3069639801979065,-1.9045270874753009,1738283528662888471,
-0.3008453845977783,-0.012353777885437012,-1.9164677748729015,1738283528692873830,
0.18688595294952393,-0.34375685453414917,-1.9161365184504242,1738283528722768502,
-0.32237666845321655,0.051187336444854736,-1.920571050024715,1738283528752745352,
-0.16321176290512085,-0.059980571269989014,-1.8986287115188514,1738283528782772847,
-0.10461872816085815,-0.41956567764282227,-1.8211434735419636,1738283528814177751,
-0.4925866723060608,0.02507603168487549,-1.8147675250979072,1738283528845726760,
0.36139559745788574,-0.09871649742126465,-2.0931062558539866,1738283528872664928,
-0.5175037384033203,-0.17296165227890015,-1.8906508586433788,1738283528902642147,
0.027060627937316895,-0.2275984287261963,-1.8788376170136927,1738283528932511247,
-0.25439727306365967,-0.4362172484397888,-1.8770318389453118,1738283528962526543,
0.1594233512878418,0.15141433477401733,-1.9083470908376594,1738283528992493926,
-0.413388192653656,-0.5099875926971436,-1.9219563545237448,1738283529022489472,
0.12817639112472534,-0.07239598035812378,-1.8712189974935811,1738283529053731585,
-0.37389683723449707,0.2974904179573059,-1.8046672016206773,1738283529085733302,
0.18677055835723877,-0.44836729764938354,-2.1499907549855917,1738283529112411877,
-0.4269378185272217,-0.061221539974212646,-1.9041792292186868,1738283529142324643,
-0.08960181474685669,0.13467860221862793,-1.9505816514374894,1738283529172230755,
-0.3550606966018677,-0.5658785700798035,-1.9366663464267027,1738283529202241630,
-0.32339906692504883,-0.07399511337280273,-1.9338737640410308,1738283529232176303,
-0.25571000576019287,0.02380281686782837,-1.8994744641369483,1738283529262204694,
0.0044158101081848145,-0.8383902311325073,-1.7811007447317126,1738283529293707554,
-0.23195677995681763,0.3605213165283203,-1.8449999457763877,1738283529324025726,
-0.32323503494262695,-0.40508854389190674,-2.2180702346027967,1738283529350028267,
-0.15617090463638306,-0.5957240462303162,-1.8580357344822038,1738283529381051914,
-0.5350200533866882,0.0711827278137207,-1.8531349821460903,1738283529411978527,
-0.4365788698196411,-0.1629435420036316,-1.90393583568198,1738283529442002794,
-1.778567910194397,0.04381418228149414,-1.8295412328216958,1738283529472176495,
-0.8942593336105347,0.26675671339035034,-1.7048797752185105,1738283529501888097,
-0.5719851851463318,0.3146645426750183,-1.4349246131178957,1738283529533739263,
-1.4938138723373413,-0.13332653045654297,-1.449367722662709,1738283529563793857,
-0.36602509021759033,0.2769573926925659,-1.4675225082827548,1738283529591745458,
-1.2411065101623535,0.263313353061676,-1.238438360458218,1738283529621775686,
0.05254489183425903,-0.1408286690711975,-1.1487272212786828,1738283529651677857,
-0.32165247201919556,0.36093205213546753,-1.1084882582871287,1738283529681688065,
-1.31670343875885,0.1579264998435974,-1.0838654436341504,1738283529711618240,
-0.3073704242706299,-0.23563683032989502,-0.9811320887364883,1738283529741927953,
-0.9659655690193176,0.5964797139167786,-0.8213325561443031,1738283529774618894,
-0.8434494137763977,0.338828980922699,-0.8389595857262574,1738283529801663098,
-1.0430493354797363,0.2140253186225891,-0.6361402137994137,1738283529831514458,
-0.6630762219429016,-0.043946683406829834,-0.5380275256388078,1738283529861504578,
-0.4427739977836609,0.6864137649536133,-0.44929838452503784,1738283529891426631,
-0.2884485721588135,0.23719406127929688,-0.34854601004052654,1738283529921417127,
-0.4419102072715759,-0.14969009160995483,-0.2488559438899787,1738283529951648599,
-0.7128052115440369,0.39059847593307495,-0.1770200152834759,1738283529981949804,
-0.41770505905151367,-0.24560147523880005,-0.08626873811999655,1738283530013736642,
-1.1562002897262573,-0.052109718322753906,-0.013600854706694922,1738283530041373270,
-0.6798334121704102,0.018564581871032715,0.0680461013389209,1738283530071201012,
-0.7136757373809814,0.2604418396949768,0.1661547153006807,1738283530101145392,
-0.33802300691604614,-0.29579174518585205,0.24757464544237914,1738283530131142768,
-0.865354061126709,0.3323367238044739,0.3440681832284958,1738283530160124095,
-0.15376919507980347,-0.044954895973205566,0.38877421225082015,1738283530191086207,
-0.30036646127700806,0.23602288961410522,0.40471352879427336,1738283530222201066,
-0.7446372509002686,-0.026692092418670654,0.4272935066751149,1738283530254072200,
0.3650217652320862,-0.6589438319206238,0.5509354233549155,1738283530280058045,
-0.2643396258354187,-0.5597567558288574,0.46660921191477195,1738283530310941016,
0.5870924592018127,-0.23211127519607544,0.5065920934379418,1738283530340922482,
-0.09512263536453247,-0.4097140431404114,0.4872470065146184,1738283530370859676,
-0.2117394208908081,-0.16089153289794922,0.48434405239630324,1738283530400859876,
-0.27688390016555786,-0.1687716245651245,0.47613346676248575,1738283530430877039,
-0.07427024841308594,-0.4678701162338257,0.46449696317992084,1738283530461787701,
0.014028191566467285,0.48479002714157104,0.4602926714573369,1738283530493814462,
0.15225225687026978,-0.39013493061065674,0.5295859737791055,1738283530520794758,
0.18338871002197266,0.038742661476135254,0.4707745413198079,1738283530550729472,
0.23022615909576416,0.008190631866455078,0.4664051399850527,1738283530580741151,
0.16305696964263916,-0.6952760219573975,0.4453544402417119,1738283530610700731,
-0.07570266723632812,-0.15212565660476685,0.45878319673533347,1738283530640670833,
0.16318649053573608,0.15546637773513794,0.4520944629997418,1738283530671095518,
0.2757883667945862,-0.8708114624023438,0.4384321055647231,1738283530702130424,
-0.3120213747024536,-0.4982941150665283,0.4512160724828995,1738283530733758558,
0.3557146191596985,-0.03582799434661865,0.548863961799664,1738283530760797179,
0.37127041816711426,-0.1775757074356079,0.4934331029158491,1738283530790719385,
0.3004101514816284,-0.7704741954803467,0.4879615529691254,1738283530820779050,
-0.06798285245895386,-0.20801758766174316,0.48985814989610565,1738283530850792502,
0.0075495243072509766,0.28657495975494385,0.5173871049964439,1738283530880770361,
-0.28163498640060425,-0.36812031269073486,0.5255595214358145,1738283530910594117,
0.007751822471618652,-0.28523290157318115,0.47332536701359645,1738283530941985097,
0.28854960203170776,0.6516438722610474,0.481983914544778,1738283530972948243,
-0.14787054061889648,-0.16541188955307007,0.5335350153730543,1738283531000528950,
0.2834014296531677,-0.6052111983299255,0.4858455223232388,1738283531030538468,
-0.3665510416030884,-0.11677151918411255,0.48984963200022663,1738283531060484771,
0.15416353940963745,-0.7143072485923767,0.5020157928326124,1738283531090517521,
0.26092517375946045,-0.38181811571121216,0.5176305672121042,1738283531120492169,
-0.3438382148742676,0.07067674398422241,0.5335259321987961,1738283531150632534,
0.280181884765625,-0.7943547368049622,0.5079308025914369,1738283531182354919,
-0.3340137004852295,0.2942124605178833,0.5442067501505983,1738283531211879135,
0.010753214359283447,-0.45639389753341675,0.5889661939495974,1738283531240502082,
-0.09187561273574829,-0.283112108707428,0.5501744743204984,1738283531270445387,
0.09049290418624878,0.10912352800369263,0.5511474198469728,1738283531300430853,
0.2212809920310974,-0.263882577419281,0.5501644561379753,1738283531330453561,
-0.07230067253112793,-0.9338626861572266,0.5390292309025106,1738283531360386615,
0.015963196754455566,-0.47882282733917236,0.5277559485870271,1738283531390217387,
-0.16683119535446167,-0.0029435157775878906,0.48711092265679595,1738283531421880266,
-0.24186784029006958,-0.10173523426055908,0.5607359203594259,1738283531449673287,
-0.42881345748901367,-0.05852186679840088,0.5654365977730289,1738283531479518804,
0.06285619735717773,-0.057509422302246094,0.576431715290973,1738283531509531094,
-0.0017784833908081055,0.021133482456207275,0.581691445866744,1738283531539488834,
-0.2574511766433716,-0.4777301549911499,0.5452518594762237,1738283531569430856,
0.3777957558631897,-0.41123098134994507,0.5198116544647268,1738283531599459717,
-0.04428660869598389,-0.6021715998649597,0.5269111157520955,1738283531630377189,
-0.007380843162536621,-0.3668253421783447,0.5397311327027638,1738283531661896935,
0.4842040538787842,-0.05833011865615845,0.6161591559684605,1738283531689336729,
-0.569111704826355,-0.14519381523132324,0.542250981254425,1738283531719368804,
0.37688034772872925,0.0913127064704895,0.5576509635050422,1738283531749257201,
-0.06086605787277222,-0.18342971801757812,0.6032428883299992,1738283531778203616,
0.33247697353363037,-0.4414260983467102,0.5862540112085717,1738283531808238442,
-0.10404682159423828,-0.7576313018798828,0.5492152171701504,1738283531839127677,
-0.34767526388168335,0.09163844585418701,0.5619880455830996,1738283531870000116,
0.10203897953033447,0.1816815733909607,0.5709852901408311,1738283531901917800,
-0.08830279111862183,-0.4320394992828369,0.6302408161694445,1738283531929074634,
0.2990485429763794,0.2994798421859741,0.5926354600189738,1738283531958968061,
0.14264267683029175,-0.43430036306381226,0.6152731557689137,1738283531989085674,
0.10528820753097534,-0.5068856477737427,0.6231320998837202,1738283532018974241,
-0.28537750244140625,0.08116710186004639,0.6494138437684625,1738283532048897181,
-0.4737146496772766,-0.7312400937080383,0.6227020813954773,1738283532078915227,
-0.10339963436126709,0.3127647042274475,0.6173923508851036,1738283532110010687,
-0.0173148512840271,-0.026696205139160156,0.5719052651421518,1738283532142416659,
-0.0736357569694519,-0.6286364793777466,0.6986165525478917,1738283532168826963,
-0.433594286441803,-0.22058004140853882,0.624720761328284,1738283532198700744,
0.014456331729888916,-0.02223348617553711,0.6254835194413856,1738283532228665708,
0.24308907985687256,-0.6908727884292603,0.6225932969328032,1738283532258829019,
0.14754152297973633,-0.45521456003189087,0.6293842452499963,1738283532288630291,
0.1847090721130371,0.011807858943939209,0.6528108995764901,1738283532318555708,
-0.3483309745788574,0.05932176113128662,0.6479905839203193,1738283532349086271,
0.03671836853027344,-0.05480378866195679,0.6147214755994669,1738283532381863311,
0.050071895122528076,-0.765069305896759,0.7330811802707232,1738283532408463433,
0.40672433376312256,-0.25744032859802246,0.647773954856653,1738283532438438811,
-0.22268259525299072,-0.06583726406097412,0.6552150346948176,1738283532468393793,
0.16817796230316162,-0.5274566411972046,0.6846060843755818,1738283532498311654,
-0.5058092474937439,0.12426048517227173,0.664928938446086,1738283532528291067,
-0.2197633981704712,-1.0060750246047974,0.6773249784117055,1738283532558300801,
0.08651071786880493,-0.1743980050086975,0.6257365914418933,1738283532590680584,
0.17421507835388184,0.6755443811416626,0.7086565946059966,1738283532620677768,
-0.20473569631576538,-0.8689022660255432,0.7733695369005062,1738283532648268189,
-0.3300365209579468,-0.5450253486633301,0.7047160374661127,1738283532678191390,
0.10707354545593262,-0.22675645351409912,0.7158204969173924,1738283532708106423,
-0.08761954307556152,-0.17245537042617798,0.7353361369274429,1738283532737049346,
0.09635663032531738,-0.12919390201568604,0.7067672029299423,1738283532767041027,
-0.1647505760192871,-0.17415761947631836,0.6648703500054415,1738283532798089140,
-0.31252521276474,-0.8714072704315186,0.6353651861437779,1738283532830249324,
-0.039024174213409424,-0.4039497375488281,0.7260965317308224,1738283532859919715,
-0.10319840908050537,-0.4968864321708679,0.7708771208783041,1738283532897883304,
0.5051993131637573,-0.36230576038360596,0.7515047870417447,1738283532927837072,
-0.5857170820236206,-0.06871849298477173,0.7217574326334537,1738283532958093785,
0.19224387407302856,-0.7464274168014526,0.6949490400916197,1738283532990011821,
-0.43473678827285767,-0.1173933744430542,0.7998482719033162,1738283533017755315,
0.0389363169670105,-0.5375140905380249,0.7614120329241457,1738283533047696821,
-0.23871487379074097,0.20349913835525513,0.749170406184955,1738283533077642026,
-0.2784789800643921,-0.478141188621521,0.7777991757011865,1738283533107628305,
0.1667209267616272,-1.1766657829284668,0.7853225500151013,1738283533137565881,
-0.23051220178604126,0.5750421285629272,0.7801370105637194,1738283533167507576,
-0.05823928117752075,-0.3822339177131653,0.7906963862685452,1738283533198059513,
-0.10975885391235352,-0.8384782671928406,0.7138942737077159,1738283533230463581,
0.08296829462051392,-0.23239535093307495,0.8611125309535479,1738283533257473829,
0.23674988746643066,0.10226839780807495,0.7976086399996314,1738283533287439315,
0.056458115577697754,-0.5439360737800598,0.7959624419976354,1738283533317382999,
0.09236079454421997,-0.5743730664253235,0.8108109451202763,1738283533347369828,
-0.27645498514175415,-0.2848888635635376,0.8186177234991241,1738283533377320914,
0.5903218388557434,-0.256661057472229,0.8320689942316064,1738283533407540045,
-0.5407979488372803,-0.43372809886932373,0.8453063405938931,1738283533437031175,
0.25158458948135376,-0.9679700136184692,0.7539391544755341,1738283533470464596,
-0.43053877353668213,0.33036476373672485,0.9278770458296992,1738283533497176072,
0.07312369346618652,-0.10778927803039551,0.8493997687394246,1738283533527125548,
0.4124256372451782,-0.6714162230491638,0.8854488149089629,1738283533556027903,
-0.4716401696205139,-0.344839870929718,0.8320288368475892,1738283533587008206,
0.065402090549469,-0.5728368759155273,0.8591975716870969,1738283533617014921,
-0.17956459522247314,0.24410593509674072,0.8439119092494345,1738283533646996205,
0.04077249765396118,-0.5988436937332153,0.8214140773233812,1738283533678627872,
-0.017180562019348145,-0.44068074226379395,0.8323438791624934,1738283533710182161,
0.36439913511276245,-0.23048347234725952,1.005326483367528,1738283533736950142,
0.021758317947387695,-0.533707320690155,0.8863133498626502,1738283533766824799,
0.1827823519706726,-0.5386157631874084,0.8544713273358724,1738283533796995307,
-0.5030550956726074,0.35953694581985474,0.8709464905490495,1738283533826767601,
-0.36839163303375244,-0.7258784770965576,0.8789739375236476,1738283533856748607,
0.06929391622543335,-0.7838385701179504,0.8901002879693908,1738283533886687905,
0.22045087814331055,0.9726237654685974,0.8884847466978986,1738283533918078937,
0.12178570032119751,-0.8880404829978943,0.8663590400251091,1738283533950402688,
0.4878726601600647,-0.12916827201843262,1.0684556061670734,1738283534136651067,
-0.16860944032669067,-0.36201566457748413,0.9952645820691971,1738283534166386634,
0.15605568885803223,-0.3926362991333008,0.865237181778232,1738283534188922632,
0.21186381578445435,-0.1039474606513977,1.0625861249450474,1738283534216358074,
-0.1599881649017334,-0.34246164560317993,1.008696883571647,1738283534246306221,
0.03853714466094971,-0.6825451254844666,1.0126865461209669,1738283534276228798,
0.06135296821594238,-0.1891624927520752,1.0311817039233138,1738283534306211463,
-0.008166313171386719,-0.18770486116409302,1.0520869003968247,1738283534336185102,
-0.3393392562866211,-0.5271235108375549,1.0188345200354092,1738283534366185761,
0.21846938133239746,-0.6508711576461792,0.9822587313543513,1738283534398368035,
-0.4803959131240845,-0.14738798141479492,1.1808369021325174,1738283534426090367,
0.5665315985679626,-0.7543443441390991,1.1290123253018214,1738283534455037411,
-0.5060636401176453,0.12258177995681763,1.0665542612315122,1738283534485996128,
0.29769599437713623,-0.5193180441856384,1.1159184610554145,1738283534515910462,
-0.5537707805633545,-0.15830016136169434,1.1097584326340286,1738283534545909333,
0.04232954978942871,-0.7388824224472046,1.1165890585063252,1738283534575858168,
-0.2830570936203003,-0.44669950008392334,1.0919944237316792,1738283534606082220,
0.6053498983383179,-0.07869541645050049,1.0587846465936805,1738283534638587816,
-0.01635211706161499,-0.3030054569244385,1.2931613747715065,1738283534665931382,
-0.4475899934768677,-0.4749058485031128,1.1578014403828307,1738283534695985840,
0.3658868670463562,0.023294687271118164,1.2060285431887727,1738283534725733003,
0.19099348783493042,-0.33794039487838745,1.2396279804601522,1738283534755679039,
0.09037351608276367,-0.8805962800979614,1.2468359298970488,1738283534785668653,
-0.29520535469055176,-0.5061526894569397,1.2518223395410744,1738283534815883325,
0.01757115125656128,-0.4726254343986511,1.231784503019757,1738283534846400632,
-0.3582896590232849,-0.4095376133918762,1.1626079222878316,1738283534878629672,
-0.058011651039123535,-0.2731945514678955,1.477311302323937,1738283534905562291,
-0.19091010093688965,-0.35156679153442383,1.312724849342872,1738283534935464761,
0.3304506540298462,-0.6336315274238586,1.3406996456465805,1738283534965400187,
-0.30513304471969604,-0.053156137466430664,1.3396215338508946,1738283534995405611,
0.5740365386009216,-0.4377082586288452,1.3404493300297415,1738283535025344968,
-0.5720131397247314,-0.6820429563522339,1.3962831549285217,1738283535055284025,
0.3878641128540039,-0.7948826551437378,1.3583060825724746,1738283535086520314,
0.2902006506919861,-0.554416298866272,1.3382351735045772,1738283535118603262,
-0.08011364936828613,-0.4091995358467102,1.6249509327264346,1738283535145232111,
0.09623628854751587,-0.1613239049911499,1.417692835192874,1738283535175202487,
-0.3457759618759155,-0.5454406142234802,1.471075285349507,1738283535205153096,
-0.027765274047851562,-0.43354707956314087,1.5242209020450237,1738283535235172475,
-0.017997682094573975,-0.5662791132926941,1.557400754189762,1738283535264036182,
0.15809500217437744,-0.3906897306442261,1.4734483547956785,1738283535295132246,
-0.050630152225494385,-0.24659258127212524,1.5382744701937028,1738283535326077937,
0.02151089906692505,-0.8636220693588257,1.4491562479384352,1738283535358464381,
0.014130949974060059,-0.23211491107940674,1.7416797572773433,1738283535384954292,
0.02244812250137329,-0.6216356754302979,1.5354929745356372,1738283535414915698,
-0.1299559473991394,-0.7323282361030579,1.599549882702079,1738283535444916683,
-0.24359560012817383,0.04260575771331787,1.6536021050308423,1738283535474817396,
-0.07058918476104736,-1.074782133102417,1.6036034641246082,1738283535504803832,
0.39545631408691406,-0.6392744183540344,1.6420203392847117,1738283535534833767,
-0.014043748378753662,0.19353652000427246,1.6857630759600615,1738283535566083896,
-0.02075326442718506,-0.40781790018081665,1.7470399691766438,1738283535597757692,
-0.281252384185791,-0.7484278678894043,2.110337388105936,1738283535624677796,
-0.20605802536010742,-0.8400129675865173,1.8479197557924045,1738283535654648189,
-0.34430766105651855,-0.46137863397598267,1.8381393866068831,1738283535684585031,
-0.12304693460464478,-0.31075602769851685,1.8676962288492307,1738283535714555039,
-0.42745935916900635,-0.8166022896766663,1.855427872241988,1738283535744541262,
0.23462516069412231,-0.7204683423042297,1.8448359052205792,1738283535774513551,
-0.11667680740356445,-0.40586191415786743,1.8383749233224798,1738283535806100480,
-0.07422548532485962,-0.5586347579956055,2.028922915197628,1738283535835547595,
-0.05414086580276489,-0.520561933517456,1.9755621173559066,1738283535874344952,
0.22498321533203125,-0.8475008010864258,1.845480752727767,1738283535904313161,
0.009592711925506592,-0.5583949685096741,1.8660633182892095,1738283535934421347,
0.06891870498657227,-0.1845310926437378,1.8511748009862643,1738283535966354917,
0.3948644995689392,-0.9521102905273438,2.1481825169795434,1738283535994440928,
0.1943184733390808,-0.7238742709159851,1.9798612477685646,1738283536024360594,
-0.18467092514038086,-0.5805215239524841,1.9601184920657164,1738283536054237032,
-0.1887868046760559,-0.7952478528022766,1.918107804679656,1738283536084082023,
-0.03821706771850586,-0.787337601184845,1.934671064891667,1738283536113044552,
-0.1406218409538269,-0.5607823133468628,1.8079370051579464,1738283536144010180,
0.06384152173995972,-0.2024669051170349,1.840026940448801,1738283536174862704,
-0.2948840856552124,-0.19569039344787598,1.8950186817549595,1738283536206277099,
-0.24077540636062622,-0.49340885877609253,2.1190973816816276,1738283536233985660,
-0.31945908069610596,-0.27187371253967285,1.8634318634715223,1738283536264004791,
0.04309028387069702,0.12490218877792358,1.9037238955430917,1738283536293876718,
0.04765474796295166,-0.10582292079925537,1.9087459620755565,1738283536323826433,
0.3159133791923523,-0.8777297735214233,1.9326585326478143,1738283536353819397,
0.9128184914588928,-0.6417385339736938,1.9730119020490928,1738283536383743654,
-0.3762814402580261,-0.21610289812088013,1.9115853699491374,1738283536414332610,
0.582565188407898,-0.17267578840255737,1.7936222703263351,1738283536446208474,
-0.21509838104248047,-0.5053997039794922,2.0535174183733864,1738283536473749200,
-0.24504739046096802,-0.17406845092773438,1.9192099188367686,1738283536503593530,
-0.37616896629333496,-0.1455080509185791,1.9449760273920536,1738283536533551843,
-0.2572695016860962,-0.18537431955337524,1.9246465436706803,1738283536563548738,
0.9941838383674622,-0.43066197633743286,1.904554130604387,1738283536593475653,
-0.24156779050827026,-0.45772379636764526,1.927780813458443,1738283536623490829,
-0.0003058910369873047,0.20587825775146484,1.8492083420911807,1738283536654421274,
0.5520818829536438,-0.3631846308708191,1.7875415250403854,1738283536686552014,
-0.3247382640838623,-0.6437113285064697,2.0667236985423942,1738283536714158842,
0.22912579774856567,0.5398445725440979,1.956226645854507,1738283536743275891,
-0.6489423513412476,-0.7935800552368164,1.8534108419662918,1738283536773301119,
-0.09081310033798218,-0.26580244302749634,1.8422430050584182,1738283536803266469,
-0.4258877635002136,0.3016953468322754,1.9042331551659577,1738283536833210810,
-0.185552716255188,-0.3107442855834961,1.9549704388154088,1738283536863234175,
0.7256504893302917,0.11397486925125122,1.890279142039603,1738283536894125284,
1.2273156642913818,-0.16111230850219727,1.8811935052941529,1738283536926105267,
-0.29479676485061646,-0.3723902702331543,2.1682977548052307,1738283536953088662,
0.6478630900382996,0.013972640037536621,1.929431747948536,1738283536983066951,
-0.09789919853210449,0.3602690100669861,1.902035565575542,1738283537012974266,
-0.12440454959869385,0.19508159160614014,1.8983171539717887,1738283537042956677,
-0.36818206310272217,-0.5482219457626343,1.9337726532831712,1738283537072906040,
-0.36358845233917236,-0.3896453380584717,1.9017044565109675,1738283537102946566,
0.5647911429405212,0.4887810945510864,1.780056747791843,1738283537134634790,
0.5494148135185242,0.28822875022888184,1.8055046442360019,1738283537166212605,
0.7505638599395752,0.43104732036590576,2.1051286724428837,1738283537192907660,
-0.12442600727081299,0.23602044582366943,1.9082592522031903,1738283537222818985,
0.09285229444503784,0.45549261569976807,1.898147667434257,1738283537252756967,
0.23467165231704712,0.22037702798843384,1.891427021805507,1738283537282955418,
-0.029505133628845215,0.49300646781921387,1.9295892511113988,1738283537312759754,
0.07187443971633911,0.5159985423088074,1.8946544412237551,1738283537342638209,
-0.3381163477897644,0.38782286643981934,1.7789987820028672,1738283537374475927,
-0.3321058750152588,0.11330318450927734,1.8883291754194158,1738283537404786595,
-0.30722588300704956,0.3056865930557251,2.1750163202488224,1738283537431581984,
-0.4463907480239868,-0.08124351501464844,1.954330878460254,1738283537461494464,
-0.19224083423614502,0.03881794214248657,1.877286138267084,1738283537492424498,
0.006462574005126953,-0.31690526008605957,1.9332962420522999,1738283537522436085,
1.268424153327942,0.058212876319885254,1.8715490926595968,1738283537552336290,
-0.4546148180961609,0.6825053691864014,1.8031433454241073,1738283537582842957,
-0.02184879779815674,0.3879778981208801,1.8145969723249622,1738283537614214154,
-0.45360231399536133,0.3412630558013916,1.9405309134818434,1738283537644302615,
-0.2246459722518921,-0.007400035858154297,2.125795250720522,1738283537672196294,
0.7863976955413818,0.23003679513931274,1.9435234231970262,1738283537702227505,
-0.3177429437637329,0.3958508372306824,1.8434069013610412,1738283537732222115,
0.30557507276535034,0.2818993926048279,1.845952009551353,1738283537762130302,
0.20871174335479736,0.3668516278266907,1.814604801179962,1738283537792060319,
0.01174771785736084,-0.08783328533172607,1.6825200198420394,1738283537822336065,
-0.3046959638595581,0.13037538528442383,1.544825523789569,1738283537854444168,
-0.321302592754364,0.6021289229393005,1.8186546965564303,1738283537882076578,
0.005475163459777832,0.4086359739303589,1.7047655183861292,1738283537911910553,
-0.3221037983894348,0.39864879846572876,1.7000493511049435,1738283537941985695,
0.6512759327888489,-0.1729668378829956,1.6670797131956059,1738283537971850212,
-0.2408931851387024,0.04442399740219116,1.5509913501035815,1738283538001847733,
0.019430875778198242,0.9209979176521301,1.5114098218082848,1738283538031824930,
-0.5027433037757874,0.2601745128631592,1.5152468635174374,1738283538062405945,
-0.09381437301635742,0.12083148956298828,1.4132077844990993,1738283538095709841,
0.3670334219932556,0.38920164108276367,1.7138054275846615,1738283538121855964,
-0.2700765132904053,-0.023704349994659424,1.4694089801655164,1738283538151658122,
-0.06427192687988281,0.6664197444915771,1.5039353319883173,1738283538181664592,
0.08677339553833008,0.41776543855667114,1.5072295711148829,1738283538211554376,
-0.30085283517837524,-0.027441322803497314,1.445377830196314,1738283538241568957,
0.16493791341781616,0.1349824070930481,1.4177676319758752,1738283538271506129,
-0.2865922451019287,0.06325668096542358,1.367217476566507,1738283538302223654,
0.21428066492080688,0.6907696723937988,1.2934298898800456,1738283538334224388,
0.07343465089797974,0.6499348282814026,1.5090545836705511,1738283538361515080,
0.08270430564880371,-0.011476576328277588,1.344047050968325,1738283538391372109,
-0.21728664636611938,-0.2564229369163513,1.3421088188099213,1738283538421333594,
0.21014630794525146,0.6440395712852478,1.3463386848355592,1738283538451313663,
-0.41386711597442627,0.5532322525978088,1.3097217700717156,1738283538481308575,
-0.22393494844436646,0.14690357446670532,1.325262887529652,1738283538511275452,
0.03435158729553223,0.39396536350250244,1.2314877223374325,1738283538542023860,
-0.17581892013549805,-0.019981861114501953,1.1416551218099773,1738283538574406647,
-0.23956698179244995,0.3700971007347107,1.3963428891834293,1738283538601572346,
0.23489367961883545,-0.022443175315856934,1.2532321813637917,1738283538631344139,
-0.3203112483024597,-0.002558410167694092,1.2382830252371615,1738283538661329214,
0.5613091588020325,0.43371516466140747,1.2160075827744778,1738283538691366603,
0.41239792108535767,0.6053927540779114,1.1888945621876448,1738283538721230254,
-0.11252743005752563,0.37039536237716675,1.1468518488729535,1738283538751168761,
0.25250446796417236,-0.18273991346359253,1.080346093320576,1738283538782277594,
-0.35448992252349854,0.02874910831451416,1.0378545604434606,1738283538814271543,
0.44798099994659424,0.4287586212158203,1.2660417396403638,1738283538841355791,
